trial	block	num_tri_i	cond	stim_cond	corr_resp	resp	rt	acc	bl_cond_i	block_cond	t2t	t2t_i
0	0	1	0	[2, 4, 6]	2	1	1.3063951607887248	0	0	pure_pref	pure_pref	4
1	0	2	0	[4, 2, 6]	2	1	1.0136766809728215	0	0	pure_pref	pure_pref	4
2	0	3	0	[5, 1, 3]	2	2	1.0017192262237131	1	0	pure_pref	pure_pref	4
3	0	4	0	[4, 2, 6]	2	1	1.3057053554766753	0	0	pure_pref	pure_pref	4
4	0	5	0	[6, 2, 4]	2	2	1.3563338931394355	1	0	pure_pref	pure_pref	4
5	0	6	0	[2, 6, 4]	2	2	1.002341543820421	1	0	pure_pref	pure_pref	4
6	0	7	0	[6, 2, 4]	2	2	1.3343313429122645	1	0	pure_pref	pure_pref	4
7	0	8	0	[2, 6, 4]	2	2	1.326340424208638	1	0	pure_pref	pure_pref	4
8	0	9	0	[4, 6, 2]	2	2	0.9503965292033172	1	0	pure_pref	pure_pref	4
9	0	10	0	[1, 5, 3]	2	1	0.9104086583317894	0	0	pure_pref	pure_pref	4
10	0	11	0	[6, 2, 4]	2	2	1.0584922560178711	1	0	pure_pref	pure_pref	4
11	0	12	0	[5, 3, 1]	2	2	1.4104434907010273	1	0	pure_pref	pure_pref	4
12	0	13	0	[1, 3, 5]	2	2	1.7624342228027672	1	0	pure_pref	pure_pref	4
13	0	14	0	[5, 3, 1]	2	2	1.2105007153074894	1	0	pure_pref	pure_pref	4
14	0	15	0	[2, 4, 6]	2	1	0.9305389687131083	0	0	pure_pref	pure_pref	4
15	0	16	0	[4, 2, 6]	2	1	0.8505566959011048	0	0	pure_pref	pure_pref	4
16	0	17	0	[6, 2, 4]	2	2	1.5986281644586597	1	0	pure_pref	pure_pref	4
17	0	18	0	[5, 3, 1]	2	2	0.9065736766808641	1	0	pure_pref	pure_pref	4
18	0	19	0	[3, 5, 1]	2	1	1.610629159669088	0	0	pure_pref	pure_pref	4
19	0	20	0	[4, 2, 6]	2	1	0.930628537662642	0	0	pure_pref	pure_pref	4
0	1	21	0	[3, 5, 1]	2	1	1.8187084033090741	0	0	pure_pref	pure_pref	4
1	1	22	0	[4, 2, 6]	2	1	1.0987718479816522	0	0	pure_pref	pure_pref	4
2	1	23	0	[1, 3, 5]	2	2	1.274756484418731	1	0	pure_pref	pure_pref	4
3	1	24	0	[3, 1, 5]	2	2	1.5027632642907065	1	0	pure_pref	pure_pref	4
4	1	25	0	[6, 2, 4]	2	2	1.514805311936243	1	0	pure_pref	pure_pref	4
5	1	26	0	[1, 5, 3]	2	1	1.2348737326615264	0	0	pure_pref	pure_pref	4
6	1	27	0	[4, 6, 2]	2	2	1.27888878522117	1	0	pure_pref	pure_pref	4
7	1	28	0	[2, 6, 4]	2	2	0.8828733594575624	1	0	pure_pref	pure_pref	4
8	1	29	0	[1, 3, 5]	2	2	1.018913976488193	1	0	pure_pref	pure_pref	4
9	1	30	0	[5, 3, 1]	2	1	1.4669179573302245	0	0	pure_pref	pure_pref	4
10	1	31	0	[4, 6, 2]	2	2	1.0109771723580252	1	0	pure_pref	pure_pref	4
11	1	32	0	[5, 3, 1]	2	2	1.067033650556823	1	0	pure_pref	pure_pref	4
12	1	33	0	[2, 4, 6]	2	1	1.3509401629657987	0	0	pure_pref	pure_pref	4
13	1	34	0	[3, 1, 5]	2	2	1.4469826460160675	1	0	pure_pref	pure_pref	4
14	1	35	0	[2, 4, 6]	2	1	1.2070647508862749	0	0	pure_pref	pure_pref	4
15	1	36	0	[4, 2, 6]	2	1	0.8190977794365608	0	0	pure_pref	pure_pref	4
16	1	37	0	[5, 1, 3]	2	1	0.9390949804067077	0	0	pure_pref	pure_pref	4
17	1	38	0	[2, 6, 4]	2	2	0.9711273869502293	1	0	pure_pref	pure_pref	4
18	1	39	0	[3, 5, 1]	2	1	1.275093300989056	0	0	pure_pref	pure_pref	4
19	1	40	0	[6, 4, 2]	2	1	1.023347950488187	0	0	pure_pref	pure_pref	4
0	2	41	0	[5, 1, 3]	2	2	0.8951346644275873	1	0	pure_pref	pure_pref	4
1	2	42	0	[4, 2, 6]	2	1	0.9471717360204366	0	0	pure_pref	pure_pref	4
2	2	43	0	[6, 2, 4]	2	2	1.4392119176463893	1	0	pure_pref	pure_pref	4
3	2	44	0	[1, 5, 3]	2	1	0.9952665298251304	0	0	pure_pref	pure_pref	4
4	2	45	0	[3, 5, 1]	2	1	1.1712452571996437	0	0	pure_pref	pure_pref	4
5	2	46	0	[5, 3, 1]	2	1	1.287249797847835	0	0	pure_pref	pure_pref	4
6	2	47	0	[2, 4, 6]	2	1	1.515314424332928	0	0	pure_pref	pure_pref	4
7	2	48	0	[4, 2, 6]	2	1	1.419311127697938	0	0	pure_pref	pure_pref	4
8	2	49	0	[3, 5, 1]	2	1	1.6313743235677975	0	0	pure_pref	pure_pref	4
9	2	50	0	[6, 4, 2]	2	1	1.5313696585183152	0	0	pure_pref	pure_pref	4
10	2	51	0	[2, 4, 6]	2	1	1.2634403184672465	0	0	pure_pref	pure_pref	4
11	2	52	0	[1, 5, 3]	2	1	0.8554406916712196	0	0	pure_pref	pure_pref	4
12	2	53	0	[5, 1, 3]	2	2	1.8754282515394607	1	0	pure_pref	pure_pref	4
13	2	54	0	[1, 5, 3]	2	1	1.8274516389874407	0	0	pure_pref	pure_pref	4
14	2	55	0	[2, 4, 6]	2	1	0.9955355476768091	0	0	pure_pref	pure_pref	4
15	2	56	0	[1, 5, 3]	2	1	1.2115481744106091	0	0	pure_pref	pure_pref	4
16	2	57	0	[4, 6, 2]	2	2	1.203520868320993	1	0	pure_pref	pure_pref	4
17	2	58	0	[5, 3, 1]	2	2	1.8995275859922458	1	0	pure_pref	pure_pref	4
18	2	59	0	[1, 3, 5]	2	2	1.0196327051066874	1	0	pure_pref	pure_pref	4
19	2	60	0	[6, 4, 2]	2	1	2.131550040430284	0	0	pure_pref	pure_pref	4
0	3	61	0	[1, 3, 5]	2	2	0.8076771163773628	1	0	pure_pref	pure_pref	4
1	3	62	0	[6, 4, 2]	2	1	2.303620389375965	0	0	pure_pref	pure_pref	4
2	3	63	0	[2, 4, 6]	2	1	1.1637258194937203	0	0	pure_pref	pure_pref	4
3	3	64	0	[6, 4, 2]	2	1	1.8997966038441518	0	0	pure_pref	pure_pref	4
4	3	65	0	[1, 3, 5]	2	2	0.8798043789265648	1	0	pure_pref	pure_pref	4
5	3	66	0	[3, 1, 5]	2	2	1.523815388443154	1	0	pure_pref	pure_pref	4
6	3	67	0	[6, 2, 4]	2	2	1.7597916277911736	1	0	pure_pref	pure_pref	4
7	3	68	0	[2, 6, 4]	2	2	2.2518072401567224	1	0	pure_pref	pure_pref	4
8	3	69	0	[1, 3, 5]	2	2	1.1078954406916637	1	0	pure_pref	pure_pref	4
9	3	70	0	[4, 2, 6]	2	1	1.339912919077051	0	0	pure_pref	pure_pref	4
10	3	71	0	[5, 1, 3]	2	1	0.9240013684145651	0	0	pure_pref	pure_pref	4
11	3	72	0	[1, 5, 3]	2	1	1.0039615599926037	0	0	pure_pref	pure_pref	4
12	3	73	0	[6, 2, 4]	2	2	1.8319490576600401	1	0	pure_pref	pure_pref	4
13	3	74	0	[2, 6, 4]	2	2	1.9159578901535497	1	0	pure_pref	pure_pref	4
14	3	75	0	[4, 6, 2]	2	2	1.1000681097220877	1	0	pure_pref	pure_pref	4
15	3	76	0	[6, 4, 2]	2	1	1.7320292965105182	0	0	pure_pref	pure_pref	4
16	3	77	0	[1, 3, 5]	2	2	1.6480630714686413	1	0	pure_pref	pure_pref	4
17	3	78	0	[6, 4, 2]	2	0	0	nan	0	pure_pref	pure_pref	4
18	3	79	0	[2, 4, 6]	2	1	1.020112583193395	0	0	pure_pref	pure_pref	4
19	3	80	0	[4, 2, 6]	2	1	0.9001352864340788	0	0	pure_pref	pure_pref	4
0	4	81	0	[2, 4, 6]	2	1	1.1761572432667435	0	2	mix	1st	6
1	4	82	0	[5, 3, 1]	2	1	1.048214841077197	0	2	mix	stay_pref	0
2	4	83	0	[2, 4, 6]	2	1	0.7202739939043568	0	2	mix	stay_pref	0
3	4	84	0	[1, 5, 3]	2	1	1.0561510232009823	0	2	mix	stay_pref	0
4	4	85	0	[6, 2, 4]	2	1	1.508262735585049	0	2	mix	stay_pref	0
5	4	86	0	[2, 6, 4]	2	2	1.4443027306090244	1	2	mix	stay_pref	0
6	4	87	0	[1, 3, 5]	2	2	0.8323717111402402	1	2	mix	stay_pref	0
7	4	88	0	[4, 2, 6]	2	1	0.9044289979474343	0	2	mix	stay_pref	0
8	4	89	0	[2, 4, 6]	2	1	1.7243683523045092	0	2	mix	stay_pref	0
9	4	90	0	[4, 2, 6]	2	1	0.6364623375006886	0	2	mix	stay_pref	0
10	4	91	1	[1, 5, 6]	2	2	0.9284854139455092	1	2	mix	switch_pref	2
11	4	92	1	[2, 4, 3]	2	2	1.3244712943956074	1	2	mix	stay_sim	1
12	4	93	1	[5, 6, 1]	1	2	1.2845216769296712	0	2	mix	stay_sim	1
13	4	94	1	[2, 1, 6]	1	2	1.6564943708403916	0	2	mix	stay_sim	1
14	4	95	1	[4, 2, 3]	2	1	1.5125331218509928	0	2	mix	stay_sim	1
15	4	96	1	[3, 5, 4]	2	2	1.2965562604963452	1	2	mix	stay_sim	1
16	4	97	1	[5, 6, 1]	1	1	1.9205601169371675	1	2	mix	stay_sim	1
17	4	98	1	[3, 2, 1]	1	1	0.9686953411705872	1	2	mix	stay_sim	1
18	4	99	1	[4, 2, 3]	2	2	1.3686219443925438	1	2	mix	stay_sim	1
19	4	100	1	[5, 1, 6]	2	2	1.6366256142316615	1	2	mix	stay_sim	1
0	5	101	1	[6, 1, 2]	1	1	0.828769981961841	1	1	pure_sim	pure_sim	5
1	5	102	1	[5, 4, 3]	1	2	1.6286601977981263	0	1	pure_sim	pure_sim	5
2	5	103	1	[4, 2, 3]	2	2	1.8527327859676461	1	1	pure_sim	pure_sim	5
3	5	104	1	[2, 4, 3]	2	2	1.1648146420350258	1	1	pure_sim	pure_sim	5
4	5	105	1	[5, 6, 1]	1	2	2.0127797474654017	0	1	pure_sim	pure_sim	5
5	5	106	1	[4, 3, 2]	1	1	0.9608804503327519	1	1	pure_sim	pure_sim	5
6	5	107	1	[5, 3, 4]	2	2	1.172893574671889	1	1	pure_sim	pure_sim	5
7	5	108	1	[3, 5, 4]	2	2	1.2809131056790193	1	1	pure_sim	pure_sim	5
8	5	109	1	[4, 5, 6]	1	1	1.2409712632957053	1	1	pure_sim	pure_sim	5
9	5	110	1	[5, 4, 3]	1	1	1.4329716364995875	1	1	pure_sim	pure_sim	5
10	5	111	1	[3, 1, 2]	2	2	1.1289830192204136	1	1	pure_sim	pure_sim	5
11	5	112	1	[6, 2, 1]	2	2	1.6009746843315042	1	1	pure_sim	pure_sim	5
12	5	113	1	[5, 6, 1]	1	1	1.4370280524972259	1	1	pure_sim	pure_sim	5
13	5	114	1	[6, 5, 4]	1	1	1.557028363500649	1	1	pure_sim	pure_sim	5
14	5	115	1	[3, 1, 2]	2	2	0.9210925545812643	1	1	pure_sim	pure_sim	5
15	5	116	1	[2, 4, 3]	2	2	1.2131103439696744	1	1	pure_sim	pure_sim	5
16	5	117	1	[3, 4, 5]	1	1	1.5371030042915663	1	1	pure_sim	pure_sim	5
17	5	118	1	[1, 6, 5]	1	2	1.2691211046835633	0	1	pure_sim	pure_sim	5
18	5	119	1	[6, 4, 5]	2	2	2.2850594016294963	1	1	pure_sim	pure_sim	5
19	5	120	1	[2, 4, 3]	2	2	0.773217018100695	1	1	pure_sim	pure_sim	5
0	6	121	1	[1, 2, 3]	1	1	1.36929962057593	1	1	pure_sim	pure_sim	5
1	6	122	1	[6, 5, 4]	1	1	1.285387199104207	1	1	pure_sim	pure_sim	5
2	6	123	1	[1, 5, 6]	2	2	0.9533759407850084	1	1	pure_sim	pure_sim	5
3	6	124	1	[6, 2, 1]	2	2	1.0693714623375854	1	1	pure_sim	pure_sim	5
4	6	125	1	[2, 3, 4]	1	1	1.9053290414876756	1	1	pure_sim	pure_sim	5
5	6	126	1	[6, 5, 4]	1	1	0.9374494619642064	1	1	pure_sim	pure_sim	5
6	6	127	1	[4, 2, 3]	2	2	0.9454434907006544	1	1	pure_sim	pure_sim	5
7	6	128	1	[6, 2, 1]	2	2	0.9735152702614869	1	1	pure_sim	pure_sim	5
8	6	129	1	[4, 5, 6]	1	1	0.841524538160229	1	1	pure_sim	pure_sim	5
9	6	130	1	[2, 1, 6]	1	2	1.5255290166073792	0	1	pure_sim	pure_sim	5
10	6	131	1	[3, 1, 2]	2	2	1.0575614231506734	1	1	pure_sim	pure_sim	5
11	6	132	1	[1, 3, 2]	2	2	1.685499160290874	1	1	pure_sim	pure_sim	5
12	6	133	1	[6, 1, 2]	1	1	0.805601169372494	1	1	pure_sim	pure_sim	5
13	6	134	1	[3, 2, 1]	1	1	1.041598245941259	1	1	pure_sim	pure_sim	5
14	6	135	1	[4, 2, 3]	2	2	1.0216131740999117	1	1	pure_sim	pure_sim	5
15	6	136	1	[1, 3, 2]	2	2	1.3776939105555357	1	1	pure_sim	pure_sim	5
16	6	137	1	[4, 5, 6]	1	1	1.4336151023198909	1	1	pure_sim	pure_sim	5
17	6	138	1	[2, 1, 6]	1	2	1.4456854512659447	0	1	pure_sim	pure_sim	5
18	6	139	1	[1, 5, 6]	2	2	1.005746407911829	1	1	pure_sim	pure_sim	5
19	6	140	1	[6, 2, 1]	2	2	1.5697692355538493	1	1	pure_sim	pure_sim	5
0	7	141	1	[3, 4, 5]	1	1	0.9459336318964233	1	1	pure_sim	pure_sim	5
1	7	142	1	[4, 3, 2]	1	1	1.0658701872239362	1	1	pure_sim	pure_sim	5
2	7	143	1	[6, 4, 5]	2	2	0.9658624121416324	1	1	pure_sim	pure_sim	5
3	7	144	1	[4, 6, 5]	2	2	0.8259025315669533	1	1	pure_sim	pure_sim	5
4	7	145	1	[3, 4, 5]	1	1	0.9859068856130762	1	1	pure_sim	pure_sim	5
5	7	146	1	[4, 3, 2]	1	1	0.6579548423214874	1	1	pure_sim	pure_sim	5
6	7	147	1	[1, 5, 6]	2	2	0.785963177209851	1	1	pure_sim	pure_sim	5
7	7	148	1	[5, 1, 6]	2	2	1.181959320768783	1	1	pure_sim	pure_sim	5
8	7	149	1	[6, 1, 2]	1	1	1.1938343596439154	1	1	pure_sim	pure_sim	5
9	7	150	1	[3, 2, 1]	1	1	0.7780092678985966	1	1	pure_sim	pure_sim	5
10	7	151	1	[6, 4, 5]	2	1	1.6059535361073358	0	1	pure_sim	pure_sim	5
11	7	152	1	[1, 3, 2]	2	2	1.082040181625871	1	1	pure_sim	pure_sim	5
12	7	153	1	[3, 4, 5]	1	1	0.8940856503077157	1	1	pure_sim	pure_sim	5
13	7	154	1	[2, 1, 6]	1	2	1.1860794924423317	0	1	pure_sim	pure_sim	5
14	7	155	1	[6, 4, 5]	2	1	0.9301244013186079	0	1	pure_sim	pure_sim	5
15	7	156	1	[5, 1, 6]	2	2	1.2141170616409909	1	1	pure_sim	pure_sim	5
16	7	157	1	[1, 2, 3]	1	1	1.5304786340734609	1	1	pure_sim	pure_sim	5
17	7	158	1	[5, 4, 3]	1	1	0.7181461093491635	1	1	pure_sim	pure_sim	5
18	7	159	1	[2, 6, 1]	2	2	1.2021636499343913	1	1	pure_sim	pure_sim	5
19	7	160	1	[5, 1, 6]	2	1	1.1901713628162724	0	1	pure_sim	pure_sim	5
0	8	161	1	[3, 4, 5]	1	1	1.5742047645703678	1	1	pure_sim	pure_sim	5
1	8	162	1	[1, 6, 5]	1	2	1.0742806493749413	0	1	pure_sim	pure_sim	5
2	8	163	1	[2, 6, 1]	2	2	1.4063124339118076	1	1	pure_sim	pure_sim	5
3	8	164	1	[1, 3, 2]	2	2	1.2423564719783826	1	1	pure_sim	pure_sim	5
4	8	165	1	[6, 1, 2]	1	1	0.8463895627292004	1	1	pure_sim	pure_sim	5
5	8	166	1	[2, 1, 6]	1	2	1.2503831560611616	0	1	pure_sim	pure_sim	5
6	8	167	1	[5, 3, 4]	2	2	1.1384462275300393	1	1	pure_sim	pure_sim	5
7	8	168	1	[6, 2, 1]	2	2	1.094435529016664	1	1	pure_sim	pure_sim	5
8	8	169	1	[4, 5, 6]	1	1	0.9624622130995704	1	1	pure_sim	pure_sim	5
9	8	170	1	[5, 4, 3]	1	1	1.314469117372937	1	1	pure_sim	pure_sim	5
10	8	171	1	[1, 5, 6]	2	2	0.7745882316353345	1	1	pure_sim	pure_sim	5
11	8	172	1	[4, 6, 5]	2	2	0.9225433849601359	1	1	pure_sim	pure_sim	5
12	8	173	1	[1, 2, 3]	1	2	1.2625440069664364	0	1	pure_sim	pure_sim	5
13	8	174	1	[6, 5, 4]	1	1	1.0545611743482368	1	1	pure_sim	pure_sim	5
14	8	175	1	[5, 3, 4]	2	2	1.0145857436086771	1	1	pure_sim	pure_sim	5
15	8	176	1	[4, 6, 5]	2	2	0.8226516141066895	1	1	pure_sim	pure_sim	5
16	8	177	1	[3, 4, 5]	1	1	1.2866825278347278	1	1	pure_sim	pure_sim	5
17	8	178	1	[4, 3, 2]	1	2	1.3986402935875049	0	1	pure_sim	pure_sim	5
18	8	179	1	[3, 1, 2]	2	2	0.9303374385767711	1	1	pure_sim	pure_sim	5
19	8	180	1	[6, 2, 1]	2	2	0.7187009392296204	1	1	pure_sim	pure_sim	5
0	9	181	1	[3, 5, 4]	2	2	1.1987985942650994	1	2	mix	1st	6
1	9	182	1	[5, 3, 4]	2	2	1.698745101698023	1	2	mix	stay_sim	1
2	9	183	1	[6, 1, 2]	1	1	0.8828363500651903	1	2	mix	stay_sim	1
3	9	184	0	[5, 1, 3]	2	1	1.1068358524598807	0	2	mix	switch_sim	3
4	9	185	1	[2, 3, 4]	1	1	1.24285874230236	1	2	mix	switch_pref	2
5	9	186	1	[6, 4, 5]	2	2	1.2788695030167219	1	2	mix	stay_sim	1
6	9	187	0	[3, 5, 1]	2	1	1.6508723642468794	0	2	mix	switch_sim	3
7	9	188	0	[4, 6, 2]	2	2	1.4069810909995795	1	2	mix	stay_pref	0
8	9	189	0	[3, 5, 1]	2	1	1.3949322012813354	0	2	mix	stay_pref	0
9	9	190	0	[6, 4, 2]	2	1	1.6709423399888692	0	2	mix	stay_pref	0
10	9	191	1	[4, 3, 2]	1	1	1.3709672202526235	1	2	mix	switch_pref	2
11	9	192	0	[3, 1, 5]	2	1	1.8869919761145866	0	2	mix	switch_sim	3
12	9	193	1	[1, 3, 2]	2	2	1.147049511725072	1	2	mix	switch_pref	2
13	9	194	0	[5, 1, 3]	2	1	1.0230848416995286	0	2	mix	switch_sim	3
14	9	195	1	[5, 4, 3]	1	1	0.8591027554894026	1	2	mix	switch_pref	2
15	9	196	0	[2, 6, 4]	2	2	1.167125085526095	1	2	mix	switch_sim	3
16	9	197	0	[2, 6, 4]	2	2	0.9871362816443252	1	2	mix	stay_pref	0
17	9	198	1	[3, 5, 4]	2	2	1.223200223922504	1	2	mix	switch_pref	2
18	9	199	1	[6, 1, 2]	1	1	1.1031398892828292	1	2	mix	stay_sim	1
19	9	200	0	[2, 4, 6]	2	1	1.3945748584937974	0	2	mix	switch_sim	3
0	10	201	0	[3, 5, 1]	2	1	1.1553156683457928	0	2	mix	1st	6
1	10	202	1	[3, 2, 1]	1	1	1.0913345151457179	1	2	mix	switch_pref	2
2	10	203	1	[4, 3, 2]	1	1	1.0233370653727434	1	2	mix	stay_sim	1
3	10	204	1	[3, 4, 5]	1	1	1.3314433662999363	1	2	mix	stay_sim	1
4	10	205	1	[3, 1, 2]	2	2	1.1634462275301303	1	2	mix	stay_sim	1
5	10	206	1	[6, 2, 1]	2	2	1.1074783852709515	1	2	mix	stay_sim	1
6	10	207	0	[3, 5, 1]	2	1	1.1314887727808127	0	2	mix	switch_sim	3
7	10	208	1	[6, 2, 1]	2	2	1.1955088013933164	1	2	mix	switch_pref	2
8	10	209	0	[3, 1, 5]	2	2	1.4835896000495268	1	2	mix	switch_sim	3
9	10	210	0	[4, 2, 6]	2	1	1.1835933320890035	0	2	mix	stay_pref	0
10	10	211	1	[3, 5, 4]	2	2	0.8635784039311147	1	2	mix	switch_pref	2
11	10	212	0	[2, 6, 4]	2	2	1.2675850594014264	1	2	mix	switch_sim	3
12	10	213	1	[6, 1, 2]	1	1	0.7396317720968	1	2	mix	switch_pref	2
13	10	214	1	[3, 1, 2]	2	2	0.9236555327488531	1	2	mix	stay_sim	1
14	10	215	1	[3, 2, 1]	1	1	0.7957255706910473	1	2	mix	stay_sim	1
15	10	216	1	[5, 3, 4]	2	2	1.1156708341109152	1	2	mix	stay_sim	1
16	10	217	0	[4, 2, 6]	2	1	0.7797645705045397	0	2	mix	switch_sim	3
17	10	218	1	[1, 5, 6]	2	2	0.7877903215771767	1	2	mix	switch_pref	2
18	10	219	1	[1, 3, 2]	2	1	1.367740561050141	0	2	mix	stay_sim	1
19	10	220	1	[5, 4, 3]	1	1	0.7078257759535518	1	2	mix	stay_sim	1
0	11	221	1	[3, 2, 1]	1	1	1.179775144616542	1	2	mix	1st	6
1	11	222	0	[1, 5, 3]	2	1	1.0718638427565566	0	2	mix	switch_sim	3
2	11	223	0	[3, 5, 1]	2	1	1.3398314362129895	0	2	mix	stay_pref	0
3	11	224	0	[4, 6, 2]	2	2	1.319858804503383	1	2	mix	stay_pref	0
4	11	225	1	[5, 3, 4]	2	2	1.3719260434158969	1	2	mix	switch_pref	2
5	11	226	0	[5, 3, 1]	2	2	1.34393823474511	1	2	mix	switch_sim	3
6	11	227	0	[4, 6, 2]	2	2	1.367974124525972	1	2	mix	stay_pref	0
7	11	228	0	[3, 1, 5]	2	2	1.2839708900914957	1	2	mix	stay_pref	0
8	11	229	1	[2, 6, 1]	2	2	1.967947067239038	1	2	mix	switch_pref	2
9	11	230	1	[5, 6, 1]	1	2	1.8999844498353013	0	2	mix	stay_sim	1
10	11	231	0	[6, 2, 4]	2	2	1.5600152391616575	1	2	mix	switch_sim	3
11	11	232	0	[6, 2, 4]	2	2	1.324073832182421	1	2	mix	stay_pref	0
12	11	233	0	[2, 6, 4]	2	2	1.484098090439602	1	2	mix	stay_pref	0
13	11	234	1	[2, 6, 1]	2	1	2.1800335883563093	0	2	mix	switch_pref	2
14	11	235	1	[6, 5, 4]	1	1	1.4241817503266248	1	2	mix	stay_sim	1
15	11	236	1	[5, 3, 4]	2	2	1.0481433103191193	1	2	mix	stay_sim	1
16	11	237	1	[5, 6, 1]	1	2	0.8366952789701827	0	2	mix	stay_sim	1
17	11	238	0	[2, 4, 6]	2	1	0.8881750326554538	0	2	mix	switch_sim	3
18	11	239	0	[3, 1, 5]	2	2	0.9762822665916246	1	2	mix	stay_pref	0
19	11	240	1	[3, 4, 5]	1	1	0.8882723766873823	1	2	mix	switch_pref	2
0	12	241	0	[6, 2, 4]	2	2	1.6363248740435665	1	2	mix	1st	6
1	12	242	1	[1, 3, 2]	2	2	1.3603430366360953	1	2	mix	switch_pref	2
2	12	243	0	[5, 3, 1]	2	2	1.1083653666728424	1	2	mix	switch_sim	3
3	12	244	0	[5, 3, 1]	2	2	0.7804086583319076	1	2	mix	stay_pref	0
4	12	245	0	[2, 4, 6]	2	1	1.2764044908872165	0	2	mix	stay_pref	0
5	12	246	1	[2, 6, 1]	2	2	0.8325259687753714	1	2	mix	switch_pref	2
6	12	247	1	[6, 1, 2]	1	1	1.0284586676616527	1	2	mix	stay_sim	1
7	12	248	0	[1, 3, 5]	2	2	0.7805063133669137	1	2	mix	switch_sim	3
8	12	249	0	[3, 5, 1]	2	1	1.1525119736265879	0	2	mix	stay_pref	0
9	12	250	0	[1, 3, 5]	2	2	0.8844352180135502	1	2	mix	stay_pref	0
10	12	251	0	[3, 1, 5]	2	2	0.8165795857439662	1	2	mix	stay_pref	0
11	12	252	0	[2, 4, 6]	2	1	0.6845900976550183	0	2	mix	stay_pref	0
12	12	253	1	[4, 2, 3]	2	2	0.5965920258754522	1	2	mix	switch_pref	2
13	12	254	0	[3, 5, 1]	2	1	1.4165699446411963	0	2	mix	switch_sim	3
14	12	255	0	[4, 6, 2]	2	2	1.1286244324192012	1	2	mix	stay_pref	0
15	12	256	0	[3, 5, 1]	2	1	1.2726345089258757	0	2	mix	stay_pref	0
16	12	257	1	[2, 1, 6]	1	2	1.448746034708165	0	2	mix	switch_pref	2
17	12	258	0	[2, 6, 4]	2	2	0.8367182932138348	1	2	mix	switch_sim	3
18	12	259	0	[6, 4, 2]	2	2	1.2247116999437822	1	2	mix	stay_pref	0
19	12	260	1	[3, 5, 4]	2	2	1.6726976425948124	1	2	mix	switch_pref	2
0	13	261	0	[3, 5, 1]	2	2	1.548756297816908	1	2	mix	1st	6
1	13	262	0	[4, 6, 2]	2	2	1.0368137712262069	1	2	mix	stay_pref	0
2	13	263	0	[5, 3, 1]	2	1	0.9408440629472352	0	2	mix	stay_pref	0
3	13	264	0	[2, 6, 4]	2	2	0.8288418237234509	1	2	mix	stay_pref	0
4	13	265	0	[6, 4, 2]	2	1	1.5328307520057933	0	2	mix	stay_pref	0
5	13	266	0	[4, 6, 2]	2	2	0.7328960626982735	1	2	mix	stay_pref	0
6	13	267	1	[3, 2, 1]	1	1	0.7569437706038116	1	2	mix	switch_pref	2
7	13	268	0	[2, 6, 4]	2	2	0.7489478758475343	1	2	mix	switch_sim	3
8	13	269	0	[2, 4, 6]	2	1	0.6289939043354025	0	2	mix	stay_pref	0
9	13	270	0	[6, 4, 2]	2	1	1.1489590719661464	0	2	mix	stay_pref	0
10	13	271	1	[5, 6, 1]	1	2	0.8450096411024788	0	2	mix	switch_pref	2
11	13	272	0	[4, 2, 6]	2	1	0.9294094047395447	0	2	mix	switch_sim	3
12	13	273	0	[5, 3, 1]	2	2	1.549013497543001	1	2	mix	stay_pref	0
13	13	274	0	[5, 1, 3]	2	1	1.1968765938918295	0	2	mix	stay_pref	0
14	13	275	0	[4, 2, 6]	2	1	0.8171288175653899	0	2	mix	stay_pref	0
15	13	276	0	[1, 3, 5]	2	2	1.2411385830687323	1	2	mix	stay_pref	0
16	13	277	0	[5, 3, 1]	2	2	0.7492458170054306	1	2	mix	stay_pref	0
17	13	278	0	[5, 3, 1]	2	2	0.7971935062510056	1	2	mix	stay_pref	0
18	13	279	1	[6, 1, 2]	1	1	0.7572174535048362	1	2	mix	switch_pref	2
19	13	280	1	[2, 3, 4]	1	1	1.497153386826085	1	2	mix	stay_sim	1
0	14	281	1	[1, 6, 5]	1	2	1.0812116688439346	0	2	mix	1st	6
1	14	282	1	[4, 2, 3]	2	1	1.6493204577968754	0	2	mix	stay_sim	1
2	14	283	0	[6, 2, 4]	2	2	1.1253747589726117	1	2	mix	switch_sim	3
3	14	284	1	[4, 2, 3]	2	2	0.9494321079801011	1	2	mix	switch_pref	2
4	14	285	1	[2, 1, 6]	1	2	1.1813547303604537	0	2	mix	stay_sim	1
5	14	286	1	[3, 2, 1]	1	1	0.9174982894815003	1	2	mix	stay_sim	1
6	14	287	0	[4, 6, 2]	2	2	1.1974609690864781	1	2	mix	switch_sim	3
7	14	288	1	[2, 3, 4]	1	2	1.1374954904522383	0	2	mix	switch_pref	2
8	14	289	1	[2, 4, 3]	2	2	0.841543509361145	1	2	mix	stay_sim	1
9	14	290	1	[5, 1, 6]	2	1	1.7335273993903684	0	2	mix	stay_sim	1
10	14	291	1	[5, 1, 6]	2	1	1.1736194563663958	0	2	mix	stay_sim	1
11	14	292	0	[4, 2, 6]	2	1	0.8335871120229967	0	2	mix	switch_sim	3
12	14	293	1	[2, 4, 3]	2	2	0.901481308701932	1	2	mix	switch_pref	2
13	14	294	0	[1, 3, 5]	2	2	1.2776161597312239	1	2	mix	switch_sim	3
14	14	295	1	[4, 3, 2]	1	1	0.8537152453818635	1	2	mix	switch_pref	2
15	14	296	1	[6, 2, 1]	2	2	1.077737762020206	1	2	mix	stay_sim	1
16	14	297	1	[6, 2, 1]	2	2	1.0856758101635933	1	2	mix	stay_sim	1
17	14	298	1	[2, 3, 4]	1	1	1.1616881258942158	1	2	mix	stay_sim	1
18	14	299	0	[3, 1, 5]	2	2	1.4016859488710907	1	2	mix	switch_sim	3
19	14	300	0	[6, 4, 2]	2	1	1.3417459725073968	0	2	mix	stay_pref	0
0	15	301	0	[3, 1, 5]	2	2	1.47378491012023	1	2	mix	1st	6
1	15	302	0	[1, 3, 5]	2	2	0.7938508428187561	1	2	mix	stay_pref	0
2	15	303	1	[3, 2, 1]	1	1	0.7058602351185073	1	2	mix	switch_pref	2
3	15	304	1	[6, 1, 2]	1	1	1.1258611681282673	1	2	mix	stay_sim	1
4	15	305	1	[4, 3, 2]	1	1	0.6939102444484888	1	2	mix	stay_sim	1
5	15	306	0	[4, 2, 6]	2	1	1.373946009827705	0	2	mix	switch_sim	3
6	15	307	1	[5, 1, 6]	2	2	0.945931143870439	1	2	mix	switch_pref	2
7	15	308	0	[6, 4, 2]	2	1	1.1099605025815436	0	2	mix	switch_sim	3
8	15	309	1	[6, 2, 1]	2	2	1.2659774833614392	1	2	mix	switch_pref	2
9	15	310	1	[1, 6, 5]	1	2	1.3379772345588208	0	2	mix	stay_sim	1
10	15	311	1	[2, 4, 3]	2	2	1.37399670336481	1	2	mix	stay_sim	1
11	15	312	1	[6, 4, 5]	2	2	0.9900674877153506	1	2	mix	stay_sim	1
12	15	313	0	[6, 4, 2]	2	1	1.1780649374886707	0	2	mix	switch_sim	3
13	15	314	0	[4, 6, 2]	2	2	0.9741176836478189	1	2	mix	stay_pref	0
14	15	315	1	[2, 1, 6]	1	2	1.50609442060113	0	2	mix	switch_pref	2
15	15	316	1	[5, 4, 3]	1	1	1.086140138085284	1	2	mix	stay_sim	1
16	15	317	1	[5, 1, 6]	2	2	1.1462042047646719	1	2	mix	stay_sim	1
17	15	318	1	[2, 4, 3]	2	2	0.8701299993781504	1	2	mix	stay_sim	1
18	15	319	1	[2, 6, 1]	2	2	1.3901094731604644	1	2	mix	stay_sim	1
19	15	320	1	[5, 3, 4]	2	2	1.6502124152516444	1	2	mix	stay_sim	1
0	16	321	1	[3, 5, 4]	2	2	0.9942999315790075	1	2	mix	1st	6
1	16	322	0	[5, 3, 1]	2	2	1.4902503576540767	1	2	mix	switch_sim	3
2	16	323	1	[2, 3, 4]	1	1	1.1702979411584238	1	2	mix	switch_pref	2
3	16	324	0	[1, 5, 3]	2	1	0.826361261429156	0	2	mix	switch_sim	3
4	16	325	1	[3, 4, 5]	1	1	0.7463858306896327	1	2	mix	switch_pref	2
5	16	326	0	[6, 4, 2]	2	1	0.9784278783354239	0	2	mix	switch_sim	3
6	16	327	1	[1, 5, 6]	2	2	0.7863547303600171	1	2	mix	switch_pref	2
7	16	328	0	[3, 5, 1]	2	1	1.3463883187164356	0	2	mix	switch_sim	3
8	16	329	1	[4, 3, 2]	1	1	0.9344824905142559	1	2	mix	switch_pref	2
9	16	330	1	[1, 6, 5]	1	2	1.4864178640291357	0	2	mix	stay_sim	1
10	16	331	1	[6, 1, 2]	1	1	1.7664701125831925	1	2	mix	stay_sim	1
11	16	332	1	[2, 6, 1]	2	2	2.1264865957577967	1	2	mix	stay_sim	1
12	16	333	0	[5, 3, 1]	2	1	1.2305635379734667	0	2	mix	switch_sim	3
13	16	334	0	[5, 3, 1]	2	2	1.314561174348455	1	2	mix	stay_pref	0
14	16	335	0	[4, 6, 2]	2	2	0.9105884182372392	1	2	mix	stay_pref	0
15	16	336	1	[2, 4, 3]	2	2	0.9225912794672695	1	2	mix	switch_pref	2
16	16	337	0	[6, 2, 4]	2	2	2.018610748273659	1	2	mix	switch_sim	3
17	16	338	0	[2, 6, 4]	2	2	0.9707106425325946	1	2	mix	stay_pref	0
18	16	339	0	[6, 4, 2]	2	2	1.8426513031040486	1	2	mix	stay_pref	0
19	16	340	0	[1, 3, 5]	2	2	1.538687566088356	1	2	mix	stay_pref	0
