trial	block	num_tri_i	cond	stim_cond	corr_resp	resp	rt	acc	bl_cond_i	block_cond	t2t	t2t_i
0	0	1	0	[3, 5, 1]	2	2	0.8694359609128242	1	0	pure_pref	pure_pref	4
1	0	2	0	[2, 6, 4]	2	2	0.8139501396412925	1	0	pure_pref	pure_pref	4
2	0	3	0	[1, 3, 5]	2	2	1.250111961883249	1	0	pure_pref	pure_pref	4
3	0	4	0	[6, 4, 2]	2	2	1.3659499032773965	1	0	pure_pref	pure_pref	4
4	0	5	0	[3, 5, 1]	2	2	1.3885179978728956	1	0	pure_pref	pure_pref	4
5	0	6	0	[2, 6, 4]	2	2	1.4306635607611042	1	0	pure_pref	pure_pref	4
6	0	7	0	[3, 5, 1]	2	2	1.1505641634892072	1	0	pure_pref	pure_pref	4
7	0	8	0	[5, 3, 1]	2	0	0	nan	0	pure_pref	pure_pref	4
8	0	9	0	[6, 2, 4]	2	2	0.5546377100063182	1	0	pure_pref	pure_pref	4
9	0	10	0	[3, 1, 5]	2	0	0	nan	0	pure_pref	pure_pref	4
10	0	11	0	[4, 6, 2]	2	2	1.254788547543285	1	0	pure_pref	pure_pref	4
11	0	12	0	[2, 6, 4]	2	2	1.062752458496334	1	0	pure_pref	pure_pref	4
12	0	13	0	[6, 2, 4]	2	2	1.9227683819642607	1	0	pure_pref	pure_pref	4
13	0	14	0	[5, 3, 1]	2	2	1.3428244873077801	1	0	pure_pref	pure_pref	4
14	0	15	0	[4, 6, 2]	2	2	1.5107470967661811	1	0	pure_pref	pure_pref	4
15	0	16	0	[5, 3, 1]	2	2	1.2468840385893145	1	0	pure_pref	pure_pref	4
16	0	17	0	[3, 5, 1]	2	2	2.0427703723976265	1	0	pure_pref	pure_pref	4
17	0	18	0	[5, 3, 1]	2	2	2.0392992430133745	1	0	pure_pref	pure_pref	4
18	0	19	0	[6, 2, 4]	2	0	0	nan	0	pure_pref	pure_pref	4
19	0	20	0	[3, 1, 5]	2	2	1.0269625985108632	1	0	pure_pref	pure_pref	4
0	1	21	0	[4, 6, 2]	2	2	1.530978920065536	1	0	pure_pref	pure_pref	4
1	1	22	0	[3, 1, 5]	2	1	1.8957560226162968	0	0	pure_pref	pure_pref	4
2	1	23	0	[1, 3, 5]	2	2	1.5912996286597263	1	0	pure_pref	pure_pref	4
3	1	24	0	[3, 1, 5]	2	1	1.5272045605806852	0	0	pure_pref	pure_pref	4
4	1	25	0	[6, 2, 4]	2	2	2.055109815947162	1	0	pure_pref	pure_pref	4
5	1	26	0	[2, 6, 4]	2	2	1.6674548575906556	1	0	pure_pref	pure_pref	4
6	1	27	0	[4, 6, 2]	2	1	1.6077063986215308	0	0	pure_pref	pure_pref	4
7	1	28	0	[6, 4, 2]	2	2	1.9953131511672382	1	0	pure_pref	pure_pref	4
8	1	29	0	[5, 1, 3]	2	2	1.8356138310246024	1	0	pure_pref	pure_pref	4
9	1	30	0	[6, 4, 2]	2	1	2.3392759176210802	0	0	pure_pref	pure_pref	4
10	1	31	0	[5, 1, 3]	2	1	1.8713172315558495	0	0	pure_pref	pure_pref	4
11	1	32	0	[1, 5, 3]	2	2	1.9755851563422766	1	0	pure_pref	pure_pref	4
12	1	33	0	[6, 2, 4]	2	2	1.9154330125832075	1	0	pure_pref	pure_pref	4
13	1	34	0	[2, 6, 4]	2	1	1.707397881432371	0	0	pure_pref	pure_pref	4
14	1	35	0	[5, 1, 3]	2	1	1.6914653944479596	0	0	pure_pref	pure_pref	4
15	1	36	0	[4, 2, 6]	2	2	1.4995440663310546	1	0	pure_pref	pure_pref	4
16	1	37	0	[5, 1, 3]	2	2	1.6795675783266688	1	0	pure_pref	pure_pref	4
17	1	38	0	[6, 4, 2]	2	2	1.8041556518980997	1	0	pure_pref	pure_pref	4
18	1	39	0	[1, 3, 5]	2	1	2.0555971611443056	0	0	pure_pref	pure_pref	4
19	1	40	0	[3, 1, 5]	2	2	2.0635489428932487	1	0	pure_pref	pure_pref	4
0	2	41	0	[2, 4, 6]	2	2	1.1397685499068757	1	0	pure_pref	pure_pref	4
1	2	42	0	[1, 5, 3]	2	2	1.6077474513119796	1	0	pure_pref	pure_pref	4
2	2	43	0	[2, 4, 6]	2	2	1.6159977980828444	1	0	pure_pref	pure_pref	4
3	2	44	0	[5, 3, 1]	2	2	1.7918482418872372	1	0	pure_pref	pure_pref	4
4	2	45	0	[2, 4, 6]	2	2	1.4919116869546087	1	0	pure_pref	pure_pref	4
5	2	46	0	[3, 1, 5]	2	2	1.0520818690170017	1	0	pure_pref	pure_pref	4
6	2	47	0	[4, 6, 2]	2	1	1.7358452189164382	0	0	pure_pref	pure_pref	4
7	2	48	0	[1, 5, 3]	2	2	1.6838404791967605	1	0	pure_pref	pure_pref	4
8	2	49	0	[3, 5, 1]	2	2	1.8718891701757912	1	0	pure_pref	pure_pref	4
9	2	50	0	[4, 2, 6]	2	2	2.4641106183405554	1	0	pure_pref	pure_pref	4
10	2	51	0	[5, 1, 3]	2	1	1.956002089955291	0	0	pure_pref	pure_pref	4
11	2	52	0	[6, 4, 2]	2	1	1.796667267943576	0	0	pure_pref	pure_pref	4
12	2	53	0	[1, 3, 5]	2	1	2.0840423215918236	0	0	pure_pref	pure_pref	4
13	2	54	0	[5, 3, 1]	2	1	1.528194490231499	0	0	pure_pref	pure_pref	4
14	2	55	0	[3, 5, 1]	2	0	0	nan	0	pure_pref	pure_pref	4
15	2	56	0	[1, 5, 3]	2	1	1.6526973483694292	0	0	pure_pref	pure_pref	4
16	2	57	0	[6, 2, 4]	2	1	2.3287502565792693	0	0	pure_pref	pure_pref	4
17	2	58	0	[2, 6, 4]	2	2	1.904174001206684	1	0	pure_pref	pure_pref	4
18	2	59	0	[6, 2, 4]	2	2	2.2922522376825327	1	0	pure_pref	pure_pref	4
19	2	60	0	[3, 1, 5]	2	1	2.4682146433701746	0	0	pure_pref	pure_pref	4
0	3	61	0	[2, 4, 6]	2	2	1.8762721668977065	1	0	pure_pref	pure_pref	4
1	3	62	0	[6, 4, 2]	2	2	2.36826938029094	1	0	pure_pref	pure_pref	4
2	3	63	0	[4, 6, 2]	2	1	1.6525471328427557	0	0	pure_pref	pure_pref	4
3	3	64	0	[6, 4, 2]	2	1	1.3768509476328745	0	0	pure_pref	pure_pref	4
4	3	65	0	[3, 5, 1]	2	2	2.4083725718267033	1	0	pure_pref	pure_pref	4
5	3	66	0	[4, 2, 6]	2	1	1.772393620660523	0	0	pure_pref	pure_pref	4
6	3	67	0	[2, 4, 6]	2	2	2.4804066704402885	1	0	pure_pref	pure_pref	4
7	3	68	0	[5, 3, 1]	2	2	1.8004972973644726	1	0	pure_pref	pure_pref	4
8	3	69	0	[4, 6, 2]	2	1	1.6205142160490595	0	0	pure_pref	pure_pref	4
9	3	70	0	[3, 1, 5]	2	2	1.9565933108995068	1	0	pure_pref	pure_pref	4
10	3	71	0	[1, 3, 5]	2	1	1.941207571111363	0	0	pure_pref	pure_pref	4
11	3	72	0	[2, 6, 4]	2	1	1.800617034378547	0	0	pure_pref	pure_pref	4
12	3	73	0	[3, 5, 1]	2	2	1.9247295809516345	1	0	pure_pref	pure_pref	4
13	3	74	0	[6, 4, 2]	2	1	1.8166593062094307	0	0	pure_pref	pure_pref	4
14	3	75	0	[5, 1, 3]	2	1	1.548789567640597	0	0	pure_pref	pure_pref	4
15	3	76	0	[2, 6, 4]	2	2	1.6008341160297732	1	0	pure_pref	pure_pref	4
16	3	77	0	[5, 1, 3]	2	2	1.7289685822515821	1	0	pure_pref	pure_pref	4
17	3	78	0	[6, 4, 2]	2	2	1.4288121466204302	1	0	pure_pref	pure_pref	4
18	3	79	0	[3, 5, 1]	2	2	1.7527377790495393	1	0	pure_pref	pure_pref	4
19	3	80	0	[1, 5, 3]	2	2	1.0129014300021026	1	0	pure_pref	pure_pref	4
0	4	81	0	[4, 6, 2]	2	2	1.396873775416907	1	2	mix	1st	6
1	4	82	0	[5, 3, 1]	2	2	1.3330673201924128	1	2	mix	stay_pref	0
2	4	83	0	[4, 6, 2]	2	2	1.5890619460219568	1	2	mix	stay_pref	0
3	4	84	0	[1, 5, 3]	2	2	1.3170763642244765	1	2	mix	stay_pref	0
4	4	85	0	[6, 2, 4]	2	2	1.4890977116233444	1	2	mix	stay_pref	0
5	4	86	0	[2, 6, 4]	2	1	1.5970861919897743	0	2	mix	stay_pref	0
6	4	87	0	[5, 1, 3]	2	2	1.2774256853001589	1	2	mix	stay_pref	0
7	4	88	0	[3, 1, 5]	2	1	2.0454017876579655	0	2	mix	stay_pref	0
8	4	89	0	[6, 2, 4]	2	2	1.8332085165673107	1	2	mix	stay_pref	0
9	4	90	0	[1, 5, 3]	2	1	1.4292590611373726	0	2	mix	stay_pref	0
10	4	91	1	[4, 2, 3]	2	2	1.4336274406134635	1	2	mix	switch_pref	2
11	4	92	1	[5, 1, 6]	2	1	1.805311347336783	0	2	mix	stay_sim	1
12	4	93	1	[3, 4, 5]	1	2	1.3853423234579623	0	2	mix	stay_sim	1
13	4	94	1	[1, 6, 5]	1	2	1.6533660096163203	0	2	mix	stay_sim	1
14	4	95	1	[2, 6, 1]	2	1	1.7054233092198956	0	2	mix	stay_sim	1
15	4	96	1	[3, 5, 4]	2	2	0.8615224328073054	1	2	mix	stay_sim	1
16	4	97	1	[6, 1, 2]	1	1	1.686124812619255	1	2	mix	stay_sim	1
17	4	98	1	[2, 1, 6]	1	1	1.937502254787887	1	2	mix	stay_sim	1
18	4	99	1	[4, 2, 3]	2	2	1.0256299410955307	1	2	mix	stay_sim	1
19	4	100	1	[2, 4, 3]	2	2	1.7294845399298993	1	2	mix	stay_sim	1
0	5	101	1	[5, 6, 1]	1	1	1.3056786445149555	1	1	pure_sim	pure_sim	5
1	5	102	1	[3, 2, 1]	1	2	1.8776418339357406	0	1	pure_sim	pure_sim	5
2	5	103	1	[1, 5, 6]	2	2	1.5177170350007145	1	1	pure_sim	pure_sim	5
3	5	104	1	[6, 2, 1]	2	2	1.326260037693828	1	1	pure_sim	pure_sim	5
4	5	105	1	[1, 2, 3]	1	1	1.3937761633148966	1	1	pure_sim	pure_sim	5
5	5	106	1	[3, 2, 1]	1	1	1.561865160572097	1	1	pure_sim	pure_sim	5
6	5	107	1	[6, 4, 5]	2	2	1.2338451442753922	1	1	pure_sim	pure_sim	5
7	5	108	1	[4, 6, 5]	2	2	0.9299246123318881	1	1	pure_sim	pure_sim	5
8	5	109	1	[5, 6, 1]	1	2	1.4978848534233293	0	1	pure_sim	pure_sim	5
9	5	110	1	[3, 2, 1]	1	1	1.306487880126042	1	1	pure_sim	pure_sim	5
10	5	111	1	[2, 6, 1]	2	1	1.31787844671544	0	1	pure_sim	pure_sim	5
11	5	112	1	[5, 1, 6]	2	2	1.057942762597122	1	1	pure_sim	pure_sim	5
12	5	113	1	[4, 5, 6]	1	1	1.521970964551656	1	1	pure_sim	pure_sim	5
13	5	114	1	[1, 6, 5]	1	1	1.1941341303361241	1	1	pure_sim	pure_sim	5
14	5	115	1	[4, 2, 3]	2	2	1.3179714372795388	1	1	pure_sim	pure_sim	5
15	5	116	1	[3, 5, 4]	2	2	0.8660282765954435	1	1	pure_sim	pure_sim	5
16	5	117	1	[4, 5, 6]	1	1	1.4545257481231602	1	1	pure_sim	pure_sim	5
17	5	118	1	[3, 2, 1]	1	1	1.0501051197679772	1	1	pure_sim	pure_sim	5
18	5	119	1	[5, 3, 4]	2	2	1.3621528404107721	1	1	pure_sim	pure_sim	5
19	5	120	1	[2, 4, 3]	2	1	1.8900646268871242	0	1	pure_sim	pure_sim	5
0	6	121	1	[5, 6, 1]	1	1	1.5942628865018378	1	1	pure_sim	pure_sim	5
1	6	122	1	[6, 5, 4]	1	1	1.4471533691196328	1	1	pure_sim	pure_sim	5
2	6	123	1	[3, 1, 2]	2	2	1.9742378816811197	1	1	pure_sim	pure_sim	5
3	6	124	1	[4, 6, 5]	2	2	1.6702837611728683	1	1	pure_sim	pure_sim	5
4	6	125	1	[5, 6, 1]	1	1	1.2946541310825523	1	1	pure_sim	pure_sim	5
5	6	126	1	[4, 3, 2]	1	1	0.9944267862586003	1	1	pure_sim	pure_sim	5
6	6	127	1	[5, 3, 4]	2	2	1.4064294111426534	1	1	pure_sim	pure_sim	5
7	6	128	1	[3, 5, 4]	2	2	1.0183682799545295	1	1	pure_sim	pure_sim	5
8	6	129	1	[1, 2, 3]	1	1	1.1624974342066707	1	1	pure_sim	pure_sim	5
9	6	130	1	[3, 2, 1]	1	1	1.318851271078529	1	1	pure_sim	pure_sim	5
10	6	131	1	[2, 6, 1]	2	2	1.6464744447000612	1	1	pure_sim	pure_sim	5
11	6	132	1	[3, 5, 4]	2	1	2.250443182454319	0	1	pure_sim	pure_sim	5
12	6	133	1	[5, 6, 1]	1	1	1.9224738600103137	1	1	pure_sim	pure_sim	5
13	6	134	1	[3, 2, 1]	1	1	2.1465077222596847	1	1	pure_sim	pure_sim	5
14	6	135	1	[6, 4, 5]	2	2	1.9705176371066955	1	1	pure_sim	pure_sim	5
15	6	136	1	[3, 5, 4]	2	2	1.9708177571546912	1	1	pure_sim	pure_sim	5
16	6	137	1	[2, 3, 4]	1	1	2.2786333186122647	1	1	pure_sim	pure_sim	5
17	6	138	1	[4, 3, 2]	1	2	1.534673973216286	0	1	pure_sim	pure_sim	5
18	6	139	1	[2, 6, 1]	2	2	2.078695519658595	1	1	pure_sim	pure_sim	5
19	6	140	1	[5, 1, 6]	2	2	1.5987845915569778	1	1	pure_sim	pure_sim	5
0	7	141	1	[1, 2, 3]	1	1	1.526827622240944	1	1	pure_sim	pure_sim	5
1	7	142	1	[2, 1, 6]	1	1	1.8110170493068836	1	1	pure_sim	pure_sim	5
2	7	143	1	[4, 2, 3]	2	2	1.2828676548342628	1	1	pure_sim	pure_sim	5
3	7	144	1	[1, 3, 2]	2	2	1.9587946059250498	1	1	pure_sim	pure_sim	5
4	7	145	1	[6, 1, 2]	1	1	2.4430285067396653	1	1	pure_sim	pure_sim	5
5	7	146	1	[5, 4, 3]	1	1	1.4749155620797865	1	1	pure_sim	pure_sim	5
6	7	147	1	[4, 2, 3]	2	2	1.0910100827895803	1	1	pure_sim	pure_sim	5
7	7	148	1	[5, 1, 6]	2	2	1.8309459535107635	1	1	pure_sim	pure_sim	5
8	7	149	1	[3, 4, 5]	1	1	1.4631785356627915	1	1	pure_sim	pure_sim	5
9	7	150	1	[1, 6, 5]	1	2	1.7714808203072607	0	1	pure_sim	pure_sim	5
10	7	151	1	[3, 1, 2]	2	1	2.1390330225353864	0	1	pure_sim	pure_sim	5
11	7	152	1	[4, 6, 5]	2	2	0.9431476217428099	1	1	pure_sim	pure_sim	5
12	7	153	1	[1, 2, 3]	1	1	1.8074899389807797	1	1	pure_sim	pure_sim	5
13	7	154	1	[3, 2, 1]	1	1	1.8231347461260157	1	1	pure_sim	pure_sim	5
14	7	155	1	[5, 3, 4]	2	2	1.443367813446912	1	1	pure_sim	pure_sim	5
15	7	156	1	[3, 5, 4]	2	2	1.1752091510179525	1	1	pure_sim	pure_sim	5
16	7	157	1	[1, 2, 3]	1	1	1.667322680367306	1	1	pure_sim	pure_sim	5
17	7	158	1	[5, 4, 3]	1	1	1.7478512648581273	1	1	pure_sim	pure_sim	5
18	7	159	1	[2, 6, 1]	2	2	1.0673326325345442	1	1	pure_sim	pure_sim	5
19	7	160	1	[4, 6, 5]	2	2	1.039392855587721	1	1	pure_sim	pure_sim	5
0	8	161	1	[2, 3, 4]	1	1	1.679575042452143	1	1	pure_sim	pure_sim	5
1	8	162	1	[1, 6, 5]	1	2	2.1554584528112173	0	1	pure_sim	pure_sim	5
2	8	163	1	[2, 6, 1]	2	2	1.1439074075224198	1	1	pure_sim	pure_sim	5
3	8	164	1	[5, 1, 6]	2	2	1.1634578183607118	1	1	pure_sim	pure_sim	5
4	8	165	1	[3, 4, 5]	1	1	0.9555766347989447	1	1	pure_sim	pure_sim	5
5	8	166	1	[4, 3, 2]	1	1	0.9758442236998235	1	1	pure_sim	pure_sim	5
6	8	167	1	[3, 1, 2]	2	2	2.235500625120494	1	1	pure_sim	pure_sim	5
7	8	168	1	[2, 4, 3]	2	2	1.0595826931808006	1	1	pure_sim	pure_sim	5
8	8	169	1	[3, 4, 5]	1	1	1.3716033563687233	1	1	pure_sim	pure_sim	5
9	8	170	1	[4, 3, 2]	1	1	0.8676812693988722	1	1	pure_sim	pure_sim	5
10	8	171	1	[3, 1, 2]	2	2	1.9480699015357459	1	1	pure_sim	pure_sim	5
11	8	172	1	[2, 4, 3]	2	2	1.811910878341223	1	1	pure_sim	pure_sim	5
12	8	173	1	[1, 2, 3]	1	1	1.2077384321605678	1	1	pure_sim	pure_sim	5
13	8	174	1	[5, 4, 3]	1	1	1.2036959861666219	1	1	pure_sim	pure_sim	5
14	8	175	1	[3, 1, 2]	2	1	1.9677167239951814	0	1	pure_sim	pure_sim	5
15	8	176	1	[5, 1, 6]	2	2	1.6117376484271517	1	1	pure_sim	pure_sim	5
16	8	177	1	[3, 4, 5]	1	1	1.659770540340105	1	1	pure_sim	pure_sim	5
17	8	178	1	[6, 5, 4]	1	1	2.1558397452245117	1	1	pure_sim	pure_sim	5
18	8	179	1	[1, 5, 6]	2	0	0	nan	1	pure_sim	pure_sim	5
19	8	180	1	[2, 4, 3]	2	2	1.1927759704917662	1	1	pure_sim	pure_sim	5
0	9	181	1	[4, 6, 5]	2	2	1.4801466700669152	1	2	mix	1st	6
1	9	182	0	[4, 6, 2]	2	1	2.2240985513376472	0	2	mix	switch_sim	3
2	9	183	1	[2, 4, 3]	2	2	1.7164384924953993	1	2	mix	switch_pref	2
3	9	184	1	[2, 4, 3]	2	2	1.7442184127539804	1	2	mix	stay_sim	1
4	9	185	0	[6, 4, 2]	2	2	1.756924531470304	1	2	mix	switch_sim	3
5	9	186	0	[4, 2, 6]	2	2	1.54873483072015	1	2	mix	stay_pref	0
6	9	187	0	[5, 1, 3]	2	2	1.5322985152611182	1	2	mix	stay_pref	0
7	9	188	1	[1, 3, 2]	2	2	1.7043693124919628	1	2	mix	switch_pref	2
8	9	189	1	[6, 2, 1]	2	2	2.0965864065833557	1	2	mix	stay_sim	1
9	9	190	0	[6, 4, 2]	2	2	1.3324216733326466	1	2	mix	switch_sim	3
10	9	191	1	[1, 5, 6]	2	2	2.172660152143635	1	2	mix	switch_pref	2
11	9	192	1	[3, 1, 2]	2	2	2.4603944168338785	1	2	mix	stay_sim	1
12	9	193	0	[4, 6, 2]	2	1	1.1926596545354187	0	2	mix	switch_sim	3
13	9	194	1	[2, 3, 4]	1	1	1.8885736678093963	1	2	mix	switch_pref	2
14	9	195	0	[4, 2, 6]	2	2	1.8244758006831034	1	2	mix	switch_sim	3
15	9	196	1	[3, 4, 5]	1	1	1.9005682065571818	1	2	mix	switch_pref	2
16	9	197	1	[1, 6, 5]	1	2	1.7286146582987385	0	2	mix	stay_sim	1
17	9	198	1	[3, 2, 1]	1	2	1.7126209032835504	0	2	mix	stay_sim	1
18	9	199	0	[5, 3, 1]	2	1	1.9206109386759636	0	2	mix	switch_sim	3
19	9	200	1	[4, 2, 3]	2	2	1.5206143597333721	1	2	mix	switch_pref	2
0	10	201	0	[4, 6, 2]	2	2	1.0408384079023563	1	2	mix	1st	6
1	10	202	0	[2, 6, 4]	2	2	1.513070927852823	1	2	mix	stay_pref	0
2	10	203	0	[3, 5, 1]	2	2	1.8768991534434463	1	2	mix	stay_pref	0
3	10	204	1	[1, 5, 6]	2	2	2.196946861646211	1	2	mix	switch_pref	2
4	10	205	1	[2, 1, 6]	1	2	1.6809888722327742	0	2	mix	stay_sim	1
5	10	206	0	[1, 3, 5]	2	2	1.933248325236491	1	2	mix	switch_sim	3
6	10	207	0	[6, 2, 4]	2	2	1.4690316541123138	1	2	mix	stay_pref	0
7	10	208	1	[2, 6, 1]	2	2	1.913725904869807	1	2	mix	switch_pref	2
8	10	209	0	[1, 5, 3]	2	1	1.569402061342771	0	2	mix	switch_sim	3
9	10	210	1	[1, 2, 3]	1	1	2.097604015699744	1	2	mix	switch_pref	2
10	10	211	0	[3, 5, 1]	2	2	1.8732333347847998	1	2	mix	switch_sim	3
11	10	212	0	[2, 6, 4]	2	2	1.545728654155937	1	2	mix	stay_pref	0
12	10	213	1	[1, 5, 6]	2	2	1.9891804390149446	1	2	mix	switch_pref	2
13	10	214	1	[1, 2, 3]	1	1	1.4772816898780547	1	2	mix	stay_sim	1
14	10	215	0	[6, 4, 2]	2	2	1.581398155116858	1	2	mix	switch_sim	3
15	10	216	1	[2, 6, 1]	2	2	1.6893654871278159	1	2	mix	switch_pref	2
16	10	217	0	[2, 4, 6]	2	2	2.101392992430192	1	2	mix	switch_sim	3
17	10	218	0	[5, 3, 1]	2	2	1.8858862716074327	1	2	mix	stay_pref	0
18	10	219	0	[1, 3, 5]	2	2	1.5853597397508565	1	2	mix	stay_pref	0
19	10	220	1	[6, 5, 4]	1	1	2.245406763741812	1	2	mix	switch_pref	2
0	11	221	1	[5, 1, 6]	2	2	1.6459021950749957	1	2	mix	1st	6
1	11	222	1	[6, 1, 2]	1	2	1.5741455131278599	0	2	mix	stay_sim	1
2	11	223	1	[3, 2, 1]	1	2	1.4457725058937285	0	2	mix	stay_sim	1
3	11	224	1	[4, 5, 6]	1	2	1.3018433280049067	0	2	mix	stay_sim	1
4	11	225	1	[4, 3, 2]	1	2	1.4458941089387736	0	2	mix	stay_sim	1
5	11	226	1	[5, 1, 6]	2	2	1.6100432919283776	1	2	mix	stay_sim	1
6	11	227	1	[6, 2, 1]	2	2	1.9659685635911046	1	2	mix	stay_sim	1
7	11	228	1	[1, 5, 6]	2	2	2.121943596091114	1	2	mix	stay_sim	1
8	11	229	0	[3, 5, 1]	2	2	1.6464355690459342	1	2	mix	switch_sim	3
9	11	230	0	[3, 5, 1]	2	2	1.3780495617938868	1	2	mix	stay_pref	0
10	11	231	1	[4, 2, 3]	2	1	1.5980049014424367	0	2	mix	switch_pref	2
11	11	232	1	[4, 3, 2]	1	1	1.8540838096901098	1	2	mix	stay_sim	1
12	11	233	0	[5, 3, 1]	2	1	1.6541145992077873	0	2	mix	switch_sim	3
13	11	234	1	[1, 3, 2]	2	2	1.4981352126342244	1	2	mix	switch_pref	2
14	11	235	1	[1, 2, 3]	1	1	1.4981361456498234	1	2	mix	stay_sim	1
15	11	236	0	[5, 1, 3]	2	2	1.6342783745622	1	2	mix	switch_sim	3
16	11	237	1	[1, 2, 3]	1	1	1.430222244338438	1	2	mix	switch_pref	2
17	11	238	0	[4, 2, 6]	2	2	1.0782346099063034	1	2	mix	switch_sim	3
18	11	239	0	[3, 1, 5]	2	2	1.1349137582492403	1	2	mix	stay_pref	0
19	11	240	0	[2, 6, 4]	2	2	1.1989005965078832	1	2	mix	stay_pref	0
0	12	241	1	[5, 1, 6]	2	2	1.3746652028685276	1	2	mix	1st	6
1	12	242	1	[6, 1, 2]	1	2	1.3831593777404123	0	2	mix	stay_sim	1
2	12	243	0	[2, 4, 6]	2	2	1.814392389079785	1	2	mix	switch_sim	3
3	12	244	0	[3, 5, 1]	2	2	1.1110748962796606	1	2	mix	stay_pref	0
4	12	245	0	[6, 4, 2]	2	2	1.2145964085116248	1	2	mix	stay_pref	0
5	12	246	0	[1, 5, 3]	2	2	1.8945726477118114	1	2	mix	stay_pref	0
6	12	247	0	[5, 1, 3]	2	0	0	nan	2	mix	stay_pref	0
7	12	248	1	[1, 6, 5]	1	2	1.6346151932275461	0	2	mix	switch_pref	2
8	12	249	0	[1, 3, 5]	2	2	1.2506356946923916	1	2	mix	switch_sim	3
9	12	250	1	[3, 1, 2]	2	1	1.3507709819677984	0	2	mix	switch_pref	2
10	12	251	1	[1, 3, 2]	2	2	0.934701341676373	1	2	mix	stay_sim	1
11	12	252	0	[5, 3, 1]	2	1	1.6866812009780006	0	2	mix	switch_sim	3
12	12	253	0	[2, 6, 4]	2	2	1.9787471465269846	1	2	mix	stay_pref	0
13	12	254	1	[6, 1, 2]	1	1	1.6548159160038267	1	2	mix	switch_pref	2
14	12	255	0	[5, 3, 1]	2	2	1.3467742537427512	1	2	mix	switch_sim	3
15	12	256	0	[2, 6, 4]	2	2	1.7068470911681288	1	2	mix	stay_pref	0
16	12	257	1	[1, 6, 5]	1	1	1.4109035323976968	1	2	mix	switch_pref	2
17	12	258	0	[2, 4, 6]	2	2	1.659040300057768	1	2	mix	switch_sim	3
18	12	259	0	[5, 1, 3]	2	2	1.602889238597072	1	2	mix	stay_pref	0
19	12	260	0	[1, 3, 5]	2	2	1.5152044237383961	1	2	mix	stay_pref	0
0	13	261	1	[2, 3, 4]	1	1	1.471100149904487	1	2	mix	1st	6
1	13	262	1	[6, 4, 5]	2	1	1.595126859033826	0	2	mix	stay_sim	1
2	13	263	0	[2, 6, 4]	2	2	0.811105996803235	1	2	mix	switch_sim	3
3	13	264	0	[1, 5, 3]	2	2	0.7631866217989227	1	2	mix	stay_pref	0
4	13	265	0	[3, 5, 1]	2	2	0.7552998401433797	1	2	mix	stay_pref	0
5	13	266	1	[5, 3, 4]	2	2	1.2872260821427517	1	2	mix	switch_pref	2
6	13	267	0	[2, 6, 4]	2	1	2.03139442305428	0	2	mix	switch_sim	3
7	13	268	0	[3, 1, 5]	2	1	1.29925203241919	0	2	mix	stay_pref	0
8	13	269	0	[6, 2, 4]	2	2	0.9272941300873754	1	2	mix	stay_pref	0
9	13	270	1	[5, 3, 4]	2	2	1.5673211253410955	1	2	mix	switch_pref	2
10	13	271	1	[3, 2, 1]	1	2	1.5430829326551248	0	2	mix	stay_sim	1
11	13	272	0	[3, 5, 1]	2	2	1.5232824736112889	1	2	mix	switch_sim	3
12	13	273	0	[5, 3, 1]	2	2	1.7512791645153811	1	2	mix	stay_pref	0
13	13	274	1	[3, 2, 1]	1	2	1.687366656507038	0	2	mix	switch_pref	2
14	13	275	1	[6, 5, 4]	1	1	1.7953787732708406	1	2	mix	stay_sim	1
15	13	276	1	[4, 6, 5]	2	1	1.251458925539282	0	2	mix	stay_sim	1
16	13	277	0	[3, 1, 5]	2	2	0.9155269361631326	1	2	mix	switch_sim	3
17	13	278	1	[2, 3, 4]	1	2	1.6235048423513945	0	2	mix	switch_pref	2
18	13	279	0	[2, 6, 4]	2	2	1.3394488365293	1	2	mix	switch_sim	3
19	13	280	1	[4, 5, 6]	1	2	1.4554858212713953	0	2	mix	switch_pref	2
0	14	281	0	[3, 1, 5]	2	2	1.0035905553927478	1	2	mix	1st	6
1	14	282	0	[4, 2, 6]	2	2	1.5516660550229062	1	2	mix	stay_pref	0
2	14	283	1	[4, 2, 3]	2	1	2.203598019518722	0	2	mix	switch_pref	2
3	14	284	0	[6, 4, 2]	2	1	1.779669588042907	0	2	mix	switch_sim	3
4	14	285	0	[5, 1, 3]	2	2	1.7637825078218157	1	2	mix	stay_pref	0
5	14	286	0	[4, 2, 6]	2	2	1.851701198614137	1	2	mix	stay_pref	0
6	14	287	0	[3, 5, 1]	2	1	2.043773986278211	0	2	mix	stay_pref	0
7	14	288	0	[2, 4, 6]	2	2	1.8201260815208116	1	2	mix	stay_pref	0
8	14	289	0	[1, 5, 3]	2	2	1.659844248580157	1	2	mix	stay_pref	0
9	14	290	1	[4, 3, 2]	1	1	0.8717467297801704	1	2	mix	switch_pref	2
10	14	291	0	[2, 6, 4]	2	2	1.8517764618800356	1	2	mix	switch_sim	3
11	14	292	1	[6, 2, 1]	2	1	1.1438635557847192	0	2	mix	switch_pref	2
12	14	293	1	[3, 2, 1]	1	1	1.252033041195773	1	2	mix	stay_sim	1
13	14	294	1	[4, 3, 2]	1	1	1.1121500413637477	1	2	mix	stay_sim	1
14	14	295	1	[1, 6, 5]	1	1	0.988027542623513	1	2	mix	stay_sim	1
15	14	296	0	[2, 4, 6]	2	2	0.9561383102463878	1	2	mix	switch_sim	3
16	14	297	1	[3, 1, 2]	2	1	0.8400767560910936	0	2	mix	switch_pref	2
17	14	298	0	[4, 6, 2]	2	1	1.0006876325660414	0	2	mix	switch_sim	3
18	14	299	1	[5, 6, 1]	1	1	1.408040107234683	1	2	mix	switch_pref	2
19	14	300	0	[3, 1, 5]	2	2	1.5680684709118395	1	2	mix	switch_sim	3
0	15	301	1	[5, 4, 3]	1	1	1.2203646225329976	1	2	mix	1st	6
1	15	302	1	[6, 1, 2]	1	1	2.084262513295471	1	2	mix	stay_sim	1
2	15	303	0	[1, 5, 3]	2	1	1.720358091422895	0	2	mix	switch_sim	3
3	15	304	0	[3, 5, 1]	2	2	1.9523446684370356	1	2	mix	stay_pref	0
4	15	305	1	[1, 3, 2]	2	1	1.1963643488484195	0	2	mix	switch_pref	2
5	15	306	1	[2, 3, 4]	1	1	1.7243843651449424	1	2	mix	stay_sim	1
6	15	307	1	[4, 3, 2]	1	1	1.8604298714303695	1	2	mix	stay_sim	1
7	15	308	1	[2, 4, 3]	2	2	1.2404415652272291	1	2	mix	stay_sim	1
8	15	309	0	[1, 5, 3]	2	2	1.8126367645504615	1	2	mix	switch_sim	3
9	15	310	1	[1, 5, 6]	2	2	0.7605079337436109	1	2	mix	switch_pref	2
10	15	311	0	[5, 3, 1]	2	1	1.9724875442402663	0	2	mix	switch_sim	3
11	15	312	1	[4, 6, 5]	2	2	1.1165479663368387	1	2	mix	switch_pref	2
12	15	313	1	[3, 5, 4]	2	2	1.192620778881519	1	2	mix	stay_sim	1
13	15	314	1	[4, 2, 3]	2	2	1.2006518669641082	1	2	mix	stay_sim	1
14	15	315	1	[5, 1, 6]	2	2	1.880617842992251	1	2	mix	stay_sim	1
15	15	316	1	[6, 1, 2]	1	1	1.3327644010973927	1	2	mix	stay_sim	1
16	15	317	1	[5, 4, 3]	1	1	1.5526755780028907	1	2	mix	stay_sim	1
17	15	318	1	[3, 1, 2]	2	1	1.688664481336673	0	2	mix	stay_sim	1
18	15	319	0	[2, 6, 4]	2	2	1.2733222822807875	1	2	mix	switch_sim	3
19	15	320	0	[1, 3, 5]	2	2	1.5527648365045934	1	2	mix	stay_pref	0
0	16	321	1	[5, 4, 3]	1	1	1.0647612412844865	1	2	mix	1st	6
1	16	322	0	[4, 6, 2]	2	1	1.7288003284215847	0	2	mix	switch_sim	3
2	16	323	0	[3, 5, 1]	2	1	1.3928359945016382	0	2	mix	stay_pref	0
3	16	324	0	[6, 4, 2]	2	1	1.828981955476138	0	2	mix	stay_pref	0
4	16	325	0	[6, 2, 4]	2	2	1.3649438013549116	1	2	mix	stay_pref	0
5	16	326	1	[4, 5, 6]	1	2	1.6969966224833115	0	2	mix	switch_pref	2
6	16	327	1	[6, 4, 5]	2	2	1.3009563410855662	1	2	mix	stay_sim	1
7	16	328	1	[5, 4, 3]	1	2	0.9530518943329298	0	2	mix	stay_sim	1
8	16	329	0	[5, 1, 3]	2	2	1.3969994215299266	1	2	mix	switch_sim	3
9	16	330	0	[1, 3, 5]	2	2	1.5292114773369576	1	2	mix	stay_pref	0
10	16	331	0	[4, 6, 2]	2	1	1.5974090154195437	0	2	mix	stay_pref	0
11	16	332	1	[3, 4, 5]	1	1	1.8613821694480066	1	2	mix	switch_pref	2
12	16	333	1	[2, 3, 4]	1	1	1.937053474239292	1	2	mix	stay_sim	1
13	16	334	0	[6, 4, 2]	2	1	1.381479327481884	0	2	mix	switch_sim	3
14	16	335	0	[2, 6, 4]	2	1	1.7411497241387224	0	2	mix	stay_pref	0
15	16	336	1	[2, 3, 4]	1	1	1.041231518513996	1	2	mix	switch_pref	2
16	16	337	0	[1, 3, 5]	2	2	1.5292416448446602	1	2	mix	switch_sim	3
17	16	338	0	[3, 1, 5]	2	2	1.581241097475413	1	2	mix	stay_pref	0
18	16	339	1	[6, 4, 5]	2	2	1.7532447175763082	1	2	mix	switch_pref	2
19	16	340	0	[2, 6, 4]	2	1	2.021246633368264	0	2	mix	switch_sim	3
